story,val2,persp_val,alt_persp_val,sa_order,key_resp_24.keys,key_resp_24.rt,trials_28.thisRepN,trials_28.thisTrialN,trials_28.thisN,trials_28.thisIndex,trials_28.ran,storyfile11,storyfile12,storyfile13,storyfile14,storyfile21,storyfile22,storyfile23,storyfile24,storyfile31,storyfile32,storyfile33,storyfile34,storyfile41,storyfile42,storyfile43,storyfile44,storypic11,storypic12,storypic13,storypic14,storypic21,storypic22,storypic23,storypic24,storypic31,storypic32,storypic33,storypic34,storypic41,storypic42,storypic43,storypic44,perspective1,perspective2,perspective3,perspective4,perspective10,perspective20,perspective30,perspective40,persp_pic1,persp_pic2,persp_pic3,persp_pic4,persp_pic10,persp_pic20,persp_pic30,persp_pic40,sa1_1,sa2_1,sa3_1,sa4_1,q5_1,q6_1,sa1_2,sa2_2,sa3_2,sa4_2,q5_2,q6_2,sa1_3,sa2_3,sa3_3,sa4_3,q5_3,q6_3,sa1_4,sa2_4,sa3_4,sa4_4,q5_4,q6_4,sa1_10,sa2_10,sa3_10,sa4_10,q5_10,q6_10,sa1_20,sa2_20,sa3_20,sa4_20,q5_20,q6_20,sa1_30,sa2_30,sa3_30,sa4_30,q5_30,q6_30,sa1_40,sa2_40,sa3_40,sa4_40,q5_40,q6_40,Prolific_ID,date,expName,psychopyVersion,OS,frameRate,participant,id,researcher,key_resp_45.keys,key_resp_45.rt,trials_64.thisRepN,trials_64.thisTrialN,trials_64.thisN,trials_64.thisIndex,trials_64.ran,img,key_resp_46.keys,key_resp_46.rt,key_resp_48.keys,key_resp_48.rt,key_resp_49.keys,key_resp_49.rt,key_resp_37.keys,key_resp_37.rt,trials_31.thisRepN,trials_31.thisTrialN,trials_31.thisN,trials_31.thisIndex,trials_31.ran,instruct,key_resp_41.keys,key_resp_41.rt,key_resp_42.keys,key_resp_42.rt,trials_57.thisRepN,trials_57.thisTrialN,trials_57.thisN,trials_57.thisIndex,trials_57.ran,key_resp_43.keys,key_resp_43.rt,trials_59.thisRepN,trials_59.thisTrialN,trials_59.thisN,trials_59.thisIndex,trials_59.ran,trials_55.thisRepN,trials_55.thisTrialN,trials_55.thisN,trials_55.thisIndex,trials_55.ran,story_presses.keys,story_presses.rt,key_resp_35.keys,trials_2.thisRepN,trials_2.thisTrialN,trials_2.thisN,trials_2.thisIndex,trials_2.ran,audio,key_resp_16.keys,key_resp_16.rt,key_resp_36.keys,key_resp_36.rt,typedWord,trials_30.thisRepN,trials_30.thisTrialN,trials_30.thisN,trials_30.thisIndex,trials_30.ran,prompt,key_resp_38.keys,key_resp_38.rt,trials_65.thisRepN,trials_65.thisTrialN,trials_65.thisN,trials_65.thisIndex,trials_65.ran,shortanswer1,key_resp_27.keys,key_resp_27.rt,shortanswer2,key_resp_28.keys,key_resp_28.rt,shortanswer3,key_resp_29.keys,key_resp_29.rt,shortanswer4,key_resp_30.keys,key_resp_30.rt,shortanswer5,key_resp_31.keys,key_resp_31.rt,shortanswer6,key_resp_32.keys,key_resp_32.rt,shortanswer7,key_resp_33.keys,key_resp_33.rt,shortanswer8,key_resp_34.keys,key_resp_34.rt,key_resp_47.keys,key_resp_47.rt,trials_4.thisRepN,trials_4.thisTrialN,trials_4.thisN,trials_4.thisIndex,trials_4.ran
22,0,2,20,0,space,10.482105,0,0,0,0,1,audio_excel_sheets/11_audio.xlsx,audio_excel_sheets/12_audio.xlsx,audio_excel_sheets/13_audio.xlsx,audio_excel_sheets/14_audio.xlsx,audio_excel_sheets/21_audio.xlsx,audio_excel_sheets/22_audio.xlsx,audio_excel_sheets/23_audio.xlsx,audio_excel_sheets/24_audio.xlsx,audio_excel_sheets/31_audio.xlsx,audio_excel_sheets/32_audio.xlsx,audio_excel_sheets/33_audio.xlsx,audio_excel_sheets/34_audio.xlsx,audio_excel_sheets/41_audio.xlsx,audio_excel_sheets/42_audio.xlsx,audio_excel_sheets/43_audio.xlsx,audio_excel_sheets/44_audio.xlsx,storypics/11_storypic.jpg,storypics/12_storypic.jpg,storypics/13_storypic.jpg,storypics/14_storypic.jpg,storypics/21_storypic.jpg,storypics/22_storypic.jpg,storypics/23_storypic.jpg,storypics/24_storypic.jpg,storypics/31_storypic.jpg,storypics/32_storypic.jpg,storypics/33_storypic.jpg,storypics/34_storypic.jpg,storypics/41_storypic.jpg,storypics/42_storypic.jpg,storypics/43_storypic.jpg,storypics/44_storypic.jpg,Restaurant Critic,Airport Customer Experience Manager,Grocery Store Customer Experience Manager,Dean of Academic Studies,Couples Therapist,Wedding Planner,Business Reporter,Matchmaker,jobphotos/restaurant_critic.jpg,jobphotos/acem.jpg,jobphotos/gscem.jpg,jobphotos/dean.jpg,jobphotos/couples.jpg,jobphotos/weddingplanner.jpg,jobphotos/business_reporter.jpg,jobphotos/matchmaker.jpg,How is the restaurant decorated?,What are the menus like?,"What does each client order?
",How do the clients like the food?,How is the restaurant supplied?,How do the clients like the chairs?,"When the clients arrive at the airport, how much time do they have until their flight departs?
",What is the reason for the hold-up at security?,"Toward which gate are the clients walking?
","What section and seat does each client sit in on the plane?
",Toward which security line are the clients walking?,What section and seat are roped off on the plane?,"What is the grocery store like upon entering?
",What items do the clients pick out to buy?,"How many checkout lanes are open, and which one do the clients step into?
","How much are the groceries, and what method of payment do the clients use?
",What is the grocery store like when the clients leave?,"How many checkout lanes are closed, and which one do the clients step into?","What is the lecture hall like?
","What class are the students in, and what is the day’s lecture about?
","What is something taught in lecture?
","What is the next assessment/assignment for the class, and when is it scheduled/due?","What class are the students in, and what was yesterday’s lecture about?","What is the lecture hall’s max capacity?
",For how long has the initiator of the breakup been thinking about breaking up with his/her partner?,"What is the initial reason stated by the initiator for why he/she is breaking up?
","Does the person who is being broken up with want to break up, and what’s the reason stated by them for this?",Who wants what items back as a result of the breakup?,What is the initial reason stated by the initiator for why he/she wanted to meet?,Who wants how many letters burned as a result of the breakup?,For how long has the couple been dating?,"How many diamonds are on the ring, and what is the diamond color?","In/on what item is the ring presented?
","Who does the new fiancee text first?
",For how long has the couple known the other was going to propose?,Who does the new fiancee hug first?,What is each business person’s job title?,"How much money is at stake in the initial offer made?
",What is the name of the other industry competitor? ,With what gesture do the business partners secure the deal?,What is each business person’s salary?,How much money is at stake in the final offer made?,What object is the initiator of the interaction holding when he/she first notices the other person?,What is the initial question that begins the conversation between the couple?,When will be the next time the couple meets and for what occasion?,"What time is it when the couple parts?
",What is the initial question that ends the conversation between the couple?,What object is the initiator of the interaction holding when he/she leaves the other person?,5d9f8573ce3daf0015e3e400,2020-06-10_15h07.03.668,1_online_exp,2020.1.2,Win32,60,69,,,,,,,,,,,,,,,,,,,,,,,,,,,,,,,,,,,,,,,,,,,,,,,,,,,,,,,,,,,,,,,,,,,,,,,,,,,,,,,,,,,,,,,,,,,,,,,,,,,,,,,
,,,,,,,,,,,,,,,,,,,,,,,,,,,,,,,,,,,,,,,,,,,,,,,,,,,,,,,,,,,,,,,,,,,,,,,,,,,,,,,,,,,,,,,,,,,,,,,,,,,,,,,,,,,,5d9f8573ce3daf0015e3e400,2020-06-10_15h07.03.668,1_online_exp,2020.1.2,Win32,60,69,,,space,15.151305,0,0,0,0,1,consent/consent1.png,,,,,,,,,,,,,,,,,,,,,,,,,,,,,,,,,,,,,,,,,,,,,,,,,,,,,,,,,,,,,,,,,,,,,,,,,,,,,,,,,,,,,,,,,,,,,
,,,,,,,,,,,,,,,,,,,,,,,,,,,,,,,,,,,,,,,,,,,,,,,,,,,,,,,,,,,,,,,,,,,,,,,,,,,,,,,,,,,,,,,,,,,,,,,,,,,,,,,,,,,,5d9f8573ce3daf0015e3e400,2020-06-10_15h07.03.668,1_online_exp,2020.1.2,Win32,60,69,,,space,12.037495,0,1,1,1,1,consent/consent2.png,,,,,,,,,,,,,,,,,,,,,,,,,,,,,,,,,,,,,,,,,,,,,,,,,,,,,,,,,,,,,,,,,,,,,,,,,,,,,,,,,,,,,,,,,,,,,
,,,,,,,,,,,,,,,,,,,,,,,,,,,,,,,,,,,,,,,,,,,,,,,,,,,,,,,,,,,,,,,,,,,,,,,,,,,,,,,,,,,,,,,,,,,,,,,,,,,,,,,,,,,,5d9f8573ce3daf0015e3e400,2020-06-10_15h07.03.668,1_online_exp,2020.1.2,Win32,60,69,,,space,3.190695,0,2,2,2,1,consent/consent3.png,,,,,,,,,,,,,,,,,,,,,,,,,,,,,,,,,,,,,,,,,,,,,,,,,,,,,,,,,,,,,,,,,,,,,,,,,,,,,,,,,,,,,,,,,,,,,
,,,,,,,,,,,,,,,,,,,,,,,,,,,,,,,,,,,,,,,,,,,,,,,,,,,,,,,,,,,,,,,,,,,,,,,,,,,,,,,,,,,,,,,,,,,,,,,,,,,,,,,,,,,,5d9f8573ce3daf0015e3e400,2020-06-10_15h07.03.668,1_online_exp,2020.1.2,Win32,60,69,,,space,0.916735,0,3,3,3,1,consent/consent4.png,,,,,,,,,,,,,,,,,,,,,,,,,,,,,,,,,,,,,,,,,,,,,,,,,,,,,,,,,,,,,,,,,,,,,,,,,,,,,,,,,,,,,,,,,,,,,
,,,,,,,,,,,,,,,,,,,,,,,,,,,,,,,,,,,,,,,,,,,,,,,,,,,,,,,,,,,,,,,,,,,,,,,,,,,,,,,,,,,,,,,,,,,,,,,,,,,,,,,,,,,,5d9f8573ce3daf0015e3e400,2020-06-10_15h07.03.668,1_online_exp,2020.1.2,Win32,60,69,,,space,1.078035,0,4,4,4,1,consent/consent5.png,,,,,,,,,,,,,,,,,,,,,,,,,,,,,,,,,,,,,,,,,,,,,,,,,,,,,,,,,,,,,,,,,,,,,,,,,,,,,,,,,,,,,,,,,,,,,
,,,,,,,,,,,,,,,,,,,,,,,,,,,,,,,,,,,,,,,,,,,,,,,,,,,,,,,,,,,,,,,,,,,,,,,,,,,,,,,,,,,,,,,,,,,,,,,,,,,,,,,,,,,,5d9f8573ce3daf0015e3e400,2020-06-10_15h07.03.668,1_online_exp,2020.1.2,Win32,60,69,,,space,1.24531,0,5,5,5,1,consent/consent6.png,,,,,,,,,,,,,,,,,,,,,,,,,,,,,,,,,,,,,,,,,,,,,,,,,,,,,,,,,,,,,,,,,,,,,,,,,,,,,,,,,,,,,,,,,,,,,
,,,,,,,,,,,,,,,,,,,,,,,,,,,,,,,,,,,,,,,,,,,,,,,,,,,,,,,,,,,,,,,,,,,,,,,,,,,,,,,,,,,,,,,,,,,,,,,,,,,,,,,,,,,,5d9f8573ce3daf0015e3e400,2020-06-10_15h07.03.668,1_online_exp,2020.1.2,Win32,60,69,,,,,,,,,,,return,21.898455,space,7.860555,space,46.11739,space,2.774785,0,0,0,0,1,Welcome to the Story Listening Task! ,,,,,,,,,,,,,,,,,,,,,,,,,,,,,,,,,,,,,,,,,,,,,,,,,,,,,,,,,,,,,,,,,,,,,,,,,,,,,,,
,,,,,,,,,,,,,,,,,,,,,,,,,,,,,,,,,,,,,,,,,,,,,,,,,,,,,,,,,,,,,,,,,,,,,,,,,,,,,,,,,,,,,,,,,,,,,,,,,,,,,,,,,,,,5d9f8573ce3daf0015e3e400,2020-06-10_15h07.03.668,1_online_exp,2020.1.2,Win32,60,69,,,,,,,,,,,,,,,,,space,0.23343,0,1,1,1,1,"As the title indicates, you will listen to one short story.",,,,,,,,,,,,,,,,,,,,,,,,,,,,,,,,,,,,,,,,,,,,,,,,,,,,,,,,,,,,,,,,,,,,,,,,,,,,,,,
,,,,,,,,,,,,,,,,,,,,,,,,,,,,,,,,,,,,,,,,,,,,,,,,,,,,,,,,,,,,,,,,,,,,,,,,,,,,,,,,,,,,,,,,,,,,,,,,,,,,,,,,,,,,5d9f8573ce3daf0015e3e400,2020-06-10_15h07.03.668,1_online_exp,2020.1.2,Win32,60,69,,,,,,,,,,,,,,,,,space,0.7351,0,2,2,2,1,"After listening to the story, there will be additional tasks in this experiment. ",,,,,,,,,,,,,,,,,,,,,,,,,,,,,,,,,,,,,,,,,,,,,,,,,,,,,,,,,,,,,,,,,,,,,,,,,,,,,,,
,,,,,,,,,,,,,,,,,,,,,,,,,,,,,,,,,,,,,,,,,,,,,,,,,,,,,,,,,,,,,,,,,,,,,,,,,,,,,,,,,,,,,,,,,,,,,,,,,,,,,,,,,,,,5d9f8573ce3daf0015e3e400,2020-06-10_15h07.03.668,1_online_exp,2020.1.2,Win32,60,69,,,,,,,,,,,,,,,,,space,3.51992,0,3,3,3,1,"The story you will listen to will be presented sentence by sentence, such that each sentence is heard individually.",,,,,,,,,,,,,,,,,,,,,,,,,,,,,,,,,,,,,,,,,,,,,,,,,,,,,,,,,,,,,,,,,,,,,,,,,,,,,,,
,,,,,,,,,,,,,,,,,,,,,,,,,,,,,,,,,,,,,,,,,,,,,,,,,,,,,,,,,,,,,,,,,,,,,,,,,,,,,,,,,,,,,,,,,,,,,,,,,,,,,,,,,,,,5d9f8573ce3daf0015e3e400,2020-06-10_15h07.03.668,1_online_exp,2020.1.2,Win32,60,69,,,,,,,,,,,,,,,,,space,2.002195,0,4,4,4,1,"After each sentence plays, your task will be to make a judgement about each sentence in order to advance to the next sentence.",,,,,,,,,,,,,,,,,,,,,,,,,,,,,,,,,,,,,,,,,,,,,,,,,,,,,,,,,,,,,,,,,,,,,,,,,,,,,,,
,,,,,,,,,,,,,,,,,,,,,,,,,,,,,,,,,,,,,,,,,,,,,,,,,,,,,,,,,,,,,,,,,,,,,,,,,,,,,,,,,,,,,,,,,,,,,,,,,,,,,,,,,,,,5d9f8573ce3daf0015e3e400,2020-06-10_15h07.03.668,1_online_exp,2020.1.2,Win32,60,69,,,,,,,,,,,,,,,,,space,3.736465,0,5,5,5,1,Some people feel that the story has natural “parts.” We want you to make a judgement about when you think the story has transitioned from one “part” to another.,,,,,,,,,,,,,,,,,,,,,,,,,,,,,,,,,,,,,,,,,,,,,,,,,,,,,,,,,,,,,,,,,,,,,,,,,,,,,,,
,,,,,,,,,,,,,,,,,,,,,,,,,,,,,,,,,,,,,,,,,,,,,,,,,,,,,,,,,,,,,,,,,,,,,,,,,,,,,,,,,,,,,,,,,,,,,,,,,,,,,,,,,,,,5d9f8573ce3daf0015e3e400,2020-06-10_15h07.03.668,1_online_exp,2020.1.2,Win32,60,69,,,,,,,,,,,,,,,,,space,2.89507,0,6,6,6,1,Press “9” if you think the sentence you are reading has begun a new “part” of the story.,,,,,,,,,,,,,,,,,,,,,,,,,,,,,,,,,,,,,,,,,,,,,,,,,,,,,,,,,,,,,,,,,,,,,,,,,,,,,,,
,,,,,,,,,,,,,,,,,,,,,,,,,,,,,,,,,,,,,,,,,,,,,,,,,,,,,,,,,,,,,,,,,,,,,,,,,,,,,,,,,,,,,,,,,,,,,,,,,,,,,,,,,,,,5d9f8573ce3daf0015e3e400,2020-06-10_15h07.03.668,1_online_exp,2020.1.2,Win32,60,69,,,,,,,,,,,,,,,,,space,10.46964,0,7,7,7,1,"For example, you should press “9” at the beginning of a story and when you think a different “part” in the story is beginning.",,,,,,,,,,,,,,,,,,,,,,,,,,,,,,,,,,,,,,,,,,,,,,,,,,,,,,,,,,,,,,,,,,,,,,,,,,,,,,,
,,,,,,,,,,,,,,,,,,,,,,,,,,,,,,,,,,,,,,,,,,,,,,,,,,,,,,,,,,,,,,,,,,,,,,,,,,,,,,,,,,,,,,,,,,,,,,,,,,,,,,,,,,,,5d9f8573ce3daf0015e3e400,2020-06-10_15h07.03.668,1_online_exp,2020.1.2,Win32,60,69,,,,,,,,,,,,,,,,,space,2.59682,0,8,8,8,1,Press “1” if you think the sentence is in the same “part” as the sentence before.,,,,,,,,,,,,,,,,,,,,,,,,,,,,,,,,,,,,,,,,,,,,,,,,,,,,,,,,,,,,,,,,,,,,,,,,,,,,,,,
,,,,,,,,,,,,,,,,,,,,,,,,,,,,,,,,,,,,,,,,,,,,,,,,,,,,,,,,,,,,,,,,,,,,,,,,,,,,,,,,,,,,,,,,,,,,,,,,,,,,,,,,,,,,5d9f8573ce3daf0015e3e400,2020-06-10_15h07.03.668,1_online_exp,2020.1.2,Win32,60,69,,,,,,,,,,,,,,,,,space,0.35014,0,9,9,9,1,There are no “right” answers. We want to see what you think these parts are.,,,,,,,,,,,,,,,,,,,,,,,,,,,,,,,,,,,,,,,,,,,,,,,,,,,,,,,,,,,,,,,,,,,,,,,,,,,,,,,
,,,,,,,,,,,,,,,,,,,,,,,,,,,,,,,,,,,,,,,,,,,,,,,,,,,,,,,,,,,,,,,,,,,,,,,,,,,,,,,,,,,,,,,,,,,,,,,,,,,,,,,,,,,,5d9f8573ce3daf0015e3e400,2020-06-10_15h07.03.668,1_online_exp,2020.1.2,Win32,60,69,,,,,,,,,,,,,,,,,,,,,,,,,9,5.25353,space,1.76185,0,0,0,0,1,,,,,,,,,,,,,,,,,,,,,,,,,,,,,,,,,,,,,,,,,,,,,,,,,,,,,,,,,,,,,,,,,,,,,,
,,,,,,,,,,,,,,,,,,,,,,,,,,,,,,,,,,,,,,,,,,,,,,,,,,,,,,,,,,,,,,,,,,,,,,,,,,,,,,,,,,,,,,,,,,,,,,,,,,,,,,,,,,,,5d9f8573ce3daf0015e3e400,2020-06-10_15h07.03.668,1_online_exp,2020.1.2,Win32,60,69,,,,,,,,,,,,,,,,,,,,,,,,,,,space,0.89861,,,,,,1,3.26791,0,0,0,0,1,,,,,,,,,,,,,,,,,,,,,,,,,,,,,,,,,,,,,,,,,,,,,,,,,,,,,,,,,,,,,,,
,,,,,,,,,,,,,,,,,,,,,,,,,,,,,,,,,,,,,,,,,,,,,,,,,,,,,,,,,,,,,,,,,,,,,,,,,,,,,,,,,,,,,,,,,,,,,,,,,,,,,,,,,,,,5d9f8573ce3daf0015e3e400,2020-06-10_15h07.03.668,1_online_exp,2020.1.2,Win32,60,69,,,,,,,,,,,,,,,,,space,2.88871,,,,,,"When you make the decision that each sentence is beginning a new part of the story or not by pressing ""9"" or ""1"", you will advance to the next sentence.",,,,,,,,,,,,,,,,,0,0,0,0,1,,,,,,,,,,,,,,,,,,,,,,,,,,,,,,,,,,,,,,,,,,,,,,,,,,,,,,,,,,
,,,,,,,,,,,,,,,,,,,,,,,,,,,,,,,,,,,,,,,,,,,,,,,,,,,,,,,,,,,,,,,,,,,,,,,,,,,,,,,,,,,,,,,,,,,,,,,,,,,,,,,,,,,,5d9f8573ce3daf0015e3e400,2020-06-10_15h07.03.668,1_online_exp,2020.1.2,Win32,60,69,,,,,,,,,,,,,,,,,space,1.17984,,,,,,You will not be able to make the judgment until after the sentence has played fully.,,,,,,,,,,,,,,,,,0,1,1,1,1,,,,,,,,,,,,,,,,,,,,,,,,,,,,,,,,,,,,,,,,,,,,,,,,,,,,,,,,,,
,,,,,,,,,,,,,,,,,,,,,,,,,,,,,,,,,,,,,,,,,,,,,,,,,,,,,,,,,,,,,,,,,,,,,,,,,,,,,,,,,,,,,,,,,,,,,,,,,,,,,,,,,,,,5d9f8573ce3daf0015e3e400,2020-06-10_15h07.03.668,1_online_exp,2020.1.2,Win32,60,69,,,,,,,,,,,,,,,,,space,0.695615,,,,,,You will not be able to go back to previous sentences or change the judgement you made about a previous sentence.,,,,,,,,,,,,,,,,,0,2,2,2,1,,,,,,,,,,,,,,,,,,,,,,,,,,,,,,,,,,,,,,,,,,,,,,,,,,,,,,,,,,
,,,,,,,,,,,,,,,,,,,,,,,,,,,,,,,,,,,,,,,,,,,,,,,,,,,,,,,,,,,,,,,,,,,,,,,,,,,,,,,,,,,,,,,,,,,,,,,,,,,,,,,,,,,,5d9f8573ce3daf0015e3e400,2020-06-10_15h07.03.668,1_online_exp,2020.1.2,Win32,60,69,,,,,,,,,,,,,,,,,space,0.751675,,,,,,Press the space bar to begin listening to the story! ,,,,,,,,,,,,,,,,,0,3,3,3,1,,,,,,,,,,,,,,,,,,,,,,,,,,,,,,,,,,,,,,,,,,,,,,,,,,,,,,,,,,
,,,,,,,,,,,,,,,,,,,,,,,,,,,,,,,,,,,,,,,,,,,,,,,,,,,,,,,,,,,,,,,,,,,,,,,,,,,,,,,,,,,,,,,,,,,,,,,,,,,,,,,,,,,,5d9f8573ce3daf0015e3e400,2020-06-10_15h07.03.668,1_online_exp,2020.1.2,Win32,60,69,,,,,,,,,,,,,,,,,,,,,,,,,,,,,,,,,,,,,,,,,,,,,,1,2.615365,,0,0,0,0,1,parcelated_audio/22/22_1.ogg,,,,,,,,,,,,,,,,,,,,,,,,,,,,,,,,,,,,,,,,,,,,,,,,,
,,,,,,,,,,,,,,,,,,,,,,,,,,,,,,,,,,,,,,,,,,,,,,,,,,,,,,,,,,,,,,,,,,,,,,,,,,,,,,,,,,,,,,,,,,,,,,,,,,,,,,,,,,,,5d9f8573ce3daf0015e3e400,2020-06-10_15h07.03.668,1_online_exp,2020.1.2,Win32,60,69,,,,,,,,,,,,,,,,,,,,,,,,,,,,,,,,,,,,,,,,,,,,,,1,0.417265,,0,1,1,1,1,parcelated_audio/22/22_2.ogg,,,,,,,,,,,,,,,,,,,,,,,,,,,,,,,,,,,,,,,,,,,,,,,,,
,,,,,,,,,,,,,,,,,,,,,,,,,,,,,,,,,,,,,,,,,,,,,,,,,,,,,,,,,,,,,,,,,,,,,,,,,,,,,,,,,,,,,,,,,,,,,,,,,,,,,,,,,,,,5d9f8573ce3daf0015e3e400,2020-06-10_15h07.03.668,1_online_exp,2020.1.2,Win32,60,69,,,,,,,,,,,,,,,,,,,,,,,,,,,,,,,,,,,,,,,,,,,,,,9,2.60077,,0,2,2,2,1,parcelated_audio/22/22_3.ogg,,,,,,,,,,,,,,,,,,,,,,,,,,,,,,,,,,,,,,,,,,,,,,,,,
,,,,,,,,,,,,,,,,,,,,,,,,,,,,,,,,,,,,,,,,,,,,,,,,,,,,,,,,,,,,,,,,,,,,,,,,,,,,,,,,,,,,,,,,,,,,,,,,,,,,,,,,,,,,5d9f8573ce3daf0015e3e400,2020-06-10_15h07.03.668,1_online_exp,2020.1.2,Win32,60,69,,,,,,,,,,,,,,,,,,,,,,,,,,,,,,,,,,,,,,,,,,,,,,9,2.11269,,0,3,3,3,1,parcelated_audio/22/22_4.ogg,,,,,,,,,,,,,,,,,,,,,,,,,,,,,,,,,,,,,,,,,,,,,,,,,
,,,,,,,,,,,,,,,,,,,,,,,,,,,,,,,,,,,,,,,,,,,,,,,,,,,,,,,,,,,,,,,,,,,,,,,,,,,,,,,,,,,,,,,,,,,,,,,,,,,,,,,,,,,,5d9f8573ce3daf0015e3e400,2020-06-10_15h07.03.668,1_online_exp,2020.1.2,Win32,60,69,,,,,,,,,,,,,,,,,,,,,,,,,,,,,,,,,,,,,,,,,,,,,,1,0.60078,,0,4,4,4,1,parcelated_audio/22/22_5.ogg,,,,,,,,,,,,,,,,,,,,,,,,,,,,,,,,,,,,,,,,,,,,,,,,,
,,,,,,,,,,,,,,,,,,,,,,,,,,,,,,,,,,,,,,,,,,,,,,,,,,,,,,,,,,,,,,,,,,,,,,,,,,,,,,,,,,,,,,,,,,,,,,,,,,,,,,,,,,,,5d9f8573ce3daf0015e3e400,2020-06-10_15h07.03.668,1_online_exp,2020.1.2,Win32,60,69,,,,,,,,,,,,,,,,,,,,,,,,,,,,,,,,,,,,,,,,,,,,,,1,0.4053,,0,5,5,5,1,parcelated_audio/22/22_6.ogg,,,,,,,,,,,,,,,,,,,,,,,,,,,,,,,,,,,,,,,,,,,,,,,,,
,,,,,,,,,,,,,,,,,,,,,,,,,,,,,,,,,,,,,,,,,,,,,,,,,,,,,,,,,,,,,,,,,,,,,,,,,,,,,,,,,,,,,,,,,,,,,,,,,,,,,,,,,,,,5d9f8573ce3daf0015e3e400,2020-06-10_15h07.03.668,1_online_exp,2020.1.2,Win32,60,69,,,,,,,,,,,,,,,,,,,,,,,,,,,,,,,,,,,,,,,,,,,,,,1,0.741645,,0,6,6,6,1,parcelated_audio/22/22_7.ogg,,,,,,,,,,,,,,,,,,,,,,,,,,,,,,,,,,,,,,,,,,,,,,,,,
,,,,,,,,,,,,,,,,,,,,,,,,,,,,,,,,,,,,,,,,,,,,,,,,,,,,,,,,,,,,,,,,,,,,,,,,,,,,,,,,,,,,,,,,,,,,,,,,,,,,,,,,,,,,5d9f8573ce3daf0015e3e400,2020-06-10_15h07.03.668,1_online_exp,2020.1.2,Win32,60,69,,,,,,,,,,,,,,,,,,,,,,,,,,,,,,,,,,,,,,,,,,,,,,1,1.388785,,0,7,7,7,1,parcelated_audio/22/22_8.ogg,,,,,,,,,,,,,,,,,,,,,,,,,,,,,,,,,,,,,,,,,,,,,,,,,
,,,,,,,,,,,,,,,,,,,,,,,,,,,,,,,,,,,,,,,,,,,,,,,,,,,,,,,,,,,,,,,,,,,,,,,,,,,,,,,,,,,,,,,,,,,,,,,,,,,,,,,,,,,,5d9f8573ce3daf0015e3e400,2020-06-10_15h07.03.668,1_online_exp,2020.1.2,Win32,60,69,,,,,,,,,,,,,,,,,,,,,,,,,,,,,,,,,,,,,,,,,,,,,,1,0.86849,,0,8,8,8,1,parcelated_audio/22/22_9.ogg,,,,,,,,,,,,,,,,,,,,,,,,,,,,,,,,,,,,,,,,,,,,,,,,,
,,,,,,,,,,,,,,,,,,,,,,,,,,,,,,,,,,,,,,,,,,,,,,,,,,,,,,,,,,,,,,,,,,,,,,,,,,,,,,,,,,,,,,,,,,,,,,,,,,,,,,,,,,,,5d9f8573ce3daf0015e3e400,2020-06-10_15h07.03.668,1_online_exp,2020.1.2,Win32,60,69,,,,,,,,,,,,,,,,,,,,,,,,,,,,,,,,,,,,,,,,,,,,,,1,2.90602,,0,9,9,9,1,parcelated_audio/22/22_10.ogg,,,,,,,,,,,,,,,,,,,,,,,,,,,,,,,,,,,,,,,,,,,,,,,,,
,,,,,,,,,,,,,,,,,,,,,,,,,,,,,,,,,,,,,,,,,,,,,,,,,,,,,,,,,,,,,,,,,,,,,,,,,,,,,,,,,,,,,,,,,,,,,,,,,,,,,,,,,,,,5d9f8573ce3daf0015e3e400,2020-06-10_15h07.03.668,1_online_exp,2020.1.2,Win32,60,69,,,,,,,,,,,,,,,,,,,,,,,,,,,,,,,,,,,,,,,,,,,,,,1,1.20291,,0,10,10,10,1,parcelated_audio/22/22_11.ogg,,,,,,,,,,,,,,,,,,,,,,,,,,,,,,,,,,,,,,,,,,,,,,,,,
,,,,,,,,,,,,,,,,,,,,,,,,,,,,,,,,,,,,,,,,,,,,,,,,,,,,,,,,,,,,,,,,,,,,,,,,,,,,,,,,,,,,,,,,,,,,,,,,,,,,,,,,,,,,5d9f8573ce3daf0015e3e400,2020-06-10_15h07.03.668,1_online_exp,2020.1.2,Win32,60,69,,,,,,,,,,,,,,,,,,,,,,,,,,,,,,,,,,,,,,,,,,,,,,1,0.379945,,0,11,11,11,1,parcelated_audio/22/22_12.ogg,,,,,,,,,,,,,,,,,,,,,,,,,,,,,,,,,,,,,,,,,,,,,,,,,
,,,,,,,,,,,,,,,,,,,,,,,,,,,,,,,,,,,,,,,,,,,,,,,,,,,,,,,,,,,,,,,,,,,,,,,,,,,,,,,,,,,,,,,,,,,,,,,,,,,,,,,,,,,,5d9f8573ce3daf0015e3e400,2020-06-10_15h07.03.668,1_online_exp,2020.1.2,Win32,60,69,,,,,,,,,,,,,,,,,,,,,,,,,,,,,,,,,,,,,,,,,,,,,,1,0.172455,,0,12,12,12,1,parcelated_audio/22/22_13.ogg,,,,,,,,,,,,,,,,,,,,,,,,,,,,,,,,,,,,,,,,,,,,,,,,,
,,,,,,,,,,,,,,,,,,,,,,,,,,,,,,,,,,,,,,,,,,,,,,,,,,,,,,,,,,,,,,,,,,,,,,,,,,,,,,,,,,,,,,,,,,,,,,,,,,,,,,,,,,,,5d9f8573ce3daf0015e3e400,2020-06-10_15h07.03.668,1_online_exp,2020.1.2,Win32,60,69,,,,,,,,,,,,,,,,,,,,,,,,,,,,,,,,,,,,,,,,,,,,,,1,0.01781,,0,13,13,13,1,parcelated_audio/22/22_14.ogg,,,,,,,,,,,,,,,,,,,,,,,,,,,,,,,,,,,,,,,,,,,,,,,,,
,,,,,,,,,,,,,,,,,,,,,,,,,,,,,,,,,,,,,,,,,,,,,,,,,,,,,,,,,,,,,,,,,,,,,,,,,,,,,,,,,,,,,,,,,,,,,,,,,,,,,,,,,,,,5d9f8573ce3daf0015e3e400,2020-06-10_15h07.03.668,1_online_exp,2020.1.2,Win32,60,69,,,,,,,,,,,,,,,,,,,,,,,,,,,,,,,,,,,,,,,,,,,,,,1,0.00114,,0,14,14,14,1,parcelated_audio/22/22_15.ogg,,,,,,,,,,,,,,,,,,,,,,,,,,,,,,,,,,,,,,,,,,,,,,,,,
,,,,,,,,,,,,,,,,,,,,,,,,,,,,,,,,,,,,,,,,,,,,,,,,,,,,,,,,,,,,,,,,,,,,,,,,,,,,,,,,,,,,,,,,,,,,,,,,,,,,,,,,,,,,5d9f8573ce3daf0015e3e400,2020-06-10_15h07.03.668,1_online_exp,2020.1.2,Win32,60,69,,,,,,,,,,,,,,,,,,,,,,,,,,,,,,,,,,,,,,,,,,,,,,1,0.1502,,0,15,15,15,1,parcelated_audio/22/22_16.ogg,,,,,,,,,,,,,,,,,,,,,,,,,,,,,,,,,,,,,,,,,,,,,,,,,
,,,,,,,,,,,,,,,,,,,,,,,,,,,,,,,,,,,,,,,,,,,,,,,,,,,,,,,,,,,,,,,,,,,,,,,,,,,,,,,,,,,,,,,,,,,,,,,,,,,,,,,,,,,,5d9f8573ce3daf0015e3e400,2020-06-10_15h07.03.668,1_online_exp,2020.1.2,Win32,60,69,,,,,,,,,,,,,,,,,,,,,,,,,,,,,,,,,,,,,,,,,,,,,,1,1.36441,,0,16,16,16,1,parcelated_audio/22/22_17.ogg,,,,,,,,,,,,,,,,,,,,,,,,,,,,,,,,,,,,,,,,,,,,,,,,,
,,,,,,,,,,,,,,,,,,,,,,,,,,,,,,,,,,,,,,,,,,,,,,,,,,,,,,,,,,,,,,,,,,,,,,,,,,,,,,,,,,,,,,,,,,,,,,,,,,,,,,,,,,,,5d9f8573ce3daf0015e3e400,2020-06-10_15h07.03.668,1_online_exp,2020.1.2,Win32,60,69,,,,,,,,,,,,,,,,,,,,,,,,,,,,,,,,,,,,,,,,,,,,,,9,6.826375,,0,17,17,17,1,parcelated_audio/22/22_18.ogg,,,,,,,,,,,,,,,,,,,,,,,,,,,,,,,,,,,,,,,,,,,,,,,,,
,,,,,,,,,,,,,,,,,,,,,,,,,,,,,,,,,,,,,,,,,,,,,,,,,,,,,,,,,,,,,,,,,,,,,,,,,,,,,,,,,,,,,,,,,,,,,,,,,,,,,,,,,,,,5d9f8573ce3daf0015e3e400,2020-06-10_15h07.03.668,1_online_exp,2020.1.2,Win32,60,69,,,,,,,,,,,,,,,,,,,,,,,,,,,,,,,,,,,,,,,,,,,,,,1,1.954015,,0,18,18,18,1,parcelated_audio/22/22_19.ogg,,,,,,,,,,,,,,,,,,,,,,,,,,,,,,,,,,,,,,,,,,,,,,,,,
,,,,,,,,,,,,,,,,,,,,,,,,,,,,,,,,,,,,,,,,,,,,,,,,,,,,,,,,,,,,,,,,,,,,,,,,,,,,,,,,,,,,,,,,,,,,,,,,,,,,,,,,,,,,5d9f8573ce3daf0015e3e400,2020-06-10_15h07.03.668,1_online_exp,2020.1.2,Win32,60,69,,,,,,,,,,,,,,,,,,,,,,,,,,,,,,,,,,,,,,,,,,,,,,1,1.11285,,0,19,19,19,1,parcelated_audio/22/22_20.ogg,,,,,,,,,,,,,,,,,,,,,,,,,,,,,,,,,,,,,,,,,,,,,,,,,
,,,,,,,,,,,,,,,,,,,,,,,,,,,,,,,,,,,,,,,,,,,,,,,,,,,,,,,,,,,,,,,,,,,,,,,,,,,,,,,,,,,,,,,,,,,,,,,,,,,,,,,,,,,,5d9f8573ce3daf0015e3e400,2020-06-10_15h07.03.668,1_online_exp,2020.1.2,Win32,60,69,,,,,,,,,,,,,,,,,,,,,,,,,,,,,,,,,,,,,,,,,,,,,,1,1.54116,,0,20,20,20,1,parcelated_audio/22/22_21.ogg,,,,,,,,,,,,,,,,,,,,,,,,,,,,,,,,,,,,,,,,,,,,,,,,,
,,,,,,,,,,,,,,,,,,,,,,,,,,,,,,,,,,,,,,,,,,,,,,,,,,,,,,,,,,,,,,,,,,,,,,,,,,,,,,,,,,,,,,,,,,,,,,,,,,,,,,,,,,,,5d9f8573ce3daf0015e3e400,2020-06-10_15h07.03.668,1_online_exp,2020.1.2,Win32,60,69,,,,,,,,,,,,,,,,,,,,,,,,,,,,,,,,,,,,,,,,,,,,,,1,0.54006,,0,21,21,21,1,parcelated_audio/22/22_22.ogg,,,,,,,,,,,,,,,,,,,,,,,,,,,,,,,,,,,,,,,,,,,,,,,,,
,,,,,,,,,,,,,,,,,,,,,,,,,,,,,,,,,,,,,,,,,,,,,,,,,,,,,,,,,,,,,,,,,,,,,,,,,,,,,,,,,,,,,,,,,,,,,,,,,,,,,,,,,,,,5d9f8573ce3daf0015e3e400,2020-06-10_15h07.03.668,1_online_exp,2020.1.2,Win32,60,69,,,,,,,,,,,,,,,,,,,,,,,,,,,,,,,,,,,,,,,,,,,,,,1,0.51016,,0,22,22,22,1,parcelated_audio/22/22_23.ogg,,,,,,,,,,,,,,,,,,,,,,,,,,,,,,,,,,,,,,,,,,,,,,,,,
,,,,,,,,,,,,,,,,,,,,,,,,,,,,,,,,,,,,,,,,,,,,,,,,,,,,,,,,,,,,,,,,,,,,,,,,,,,,,,,,,,,,,,,,,,,,,,,,,,,,,,,,,,,,5d9f8573ce3daf0015e3e400,2020-06-10_15h07.03.668,1_online_exp,2020.1.2,Win32,60,69,,,,,,,,,,,,,,,,,,,,,,,,,,,,,,,,,,,,,,,,,,,,,,1,0.471925,,0,23,23,23,1,parcelated_audio/22/22_24.ogg,,,,,,,,,,,,,,,,,,,,,,,,,,,,,,,,,,,,,,,,,,,,,,,,,
,,,,,,,,,,,,,,,,,,,,,,,,,,,,,,,,,,,,,,,,,,,,,,,,,,,,,,,,,,,,,,,,,,,,,,,,,,,,,,,,,,,,,,,,,,,,,,,,,,,,,,,,,,,,5d9f8573ce3daf0015e3e400,2020-06-10_15h07.03.668,1_online_exp,2020.1.2,Win32,60,69,,,,,,,,,,,,,,,,,,,,,,,,,,,,,,,,,,,,,,,,,,,,,,1,0.236095,,0,24,24,24,1,parcelated_audio/22/22_25.ogg,,,,,,,,,,,,,,,,,,,,,,,,,,,,,,,,,,,,,,,,,,,,,,,,,
,,,,,,,,,,,,,,,,,,,,,,,,,,,,,,,,,,,,,,,,,,,,,,,,,,,,,,,,,,,,,,,,,,,,,,,,,,,,,,,,,,,,,,,,,,,,,,,,,,,,,,,,,,,,5d9f8573ce3daf0015e3e400,2020-06-10_15h07.03.668,1_online_exp,2020.1.2,Win32,60,69,,,,,,,,,,,,,,,,,,,,,,,,,,,,,,,,,,,,,,,,,,,,,,9,0.333445,,0,25,25,25,1,parcelated_audio/22/22_26.ogg,,,,,,,,,,,,,,,,,,,,,,,,,,,,,,,,,,,,,,,,,,,,,,,,,
,,,,,,,,,,,,,,,,,,,,,,,,,,,,,,,,,,,,,,,,,,,,,,,,,,,,,,,,,,,,,,,,,,,,,,,,,,,,,,,,,,,,,,,,,,,,,,,,,,,,,,,,,,,,5d9f8573ce3daf0015e3e400,2020-06-10_15h07.03.668,1_online_exp,2020.1.2,Win32,60,69,,,,,,,,,,,,,,,,,,,,,,,,,,,,,,,,,,,,,,,,,,,,,,1,0.10828,,0,26,26,26,1,parcelated_audio/22/22_27.ogg,,,,,,,,,,,,,,,,,,,,,,,,,,,,,,,,,,,,,,,,,,,,,,,,,
,,,,,,,,,,,,,,,,,,,,,,,,,,,,,,,,,,,,,,,,,,,,,,,,,,,,,,,,,,,,,,,,,,,,,,,,,,,,,,,,,,,,,,,,,,,,,,,,,,,,,,,,,,,,5d9f8573ce3daf0015e3e400,2020-06-10_15h07.03.668,1_online_exp,2020.1.2,Win32,60,69,,,,,,,,,,,,,,,,,,,,,,,,,,,,,,,,,,,,,,,,,,,,,,1,0.240315,,0,27,27,27,1,parcelated_audio/22/22_28.ogg,,,,,,,,,,,,,,,,,,,,,,,,,,,,,,,,,,,,,,,,,,,,,,,,,
,,,,,,,,,,,,,,,,,,,,,,,,,,,,,,,,,,,,,,,,,,,,,,,,,,,,,,,,,,,,,,,,,,,,,,,,,,,,,,,,,,,,,,,,,,,,,,,,,,,,,,,,,,,,5d9f8573ce3daf0015e3e400,2020-06-10_15h07.03.668,1_online_exp,2020.1.2,Win32,60,69,,,,,,,,,,,,,,,,,,,,,,,,,,,,,,,,,,,,,,,,,,,,,,1,0.358925,,0,28,28,28,1,parcelated_audio/22/22_29.ogg,,,,,,,,,,,,,,,,,,,,,,,,,,,,,,,,,,,,,,,,,,,,,,,,,
,,,,,,,,,,,,,,,,,,,,,,,,,,,,,,,,,,,,,,,,,,,,,,,,,,,,,,,,,,,,,,,,,,,,,,,,,,,,,,,,,,,,,,,,,,,,,,,,,,,,,,,,,,,,5d9f8573ce3daf0015e3e400,2020-06-10_15h07.03.668,1_online_exp,2020.1.2,Win32,60,69,,,,,,,,,,,,,,,,,,,,,,,,,,,,,,,,,,,,,,,,,,,,,,1,0.840575,,0,29,29,29,1,parcelated_audio/22/22_30.ogg,,,,,,,,,,,,,,,,,,,,,,,,,,,,,,,,,,,,,,,,,,,,,,,,,
,,,,,,,,,,,,,,,,,,,,,,,,,,,,,,,,,,,,,,,,,,,,,,,,,,,,,,,,,,,,,,,,,,,,,,,,,,,,,,,,,,,,,,,,,,,,,,,,,,,,,,,,,,,,5d9f8573ce3daf0015e3e400,2020-06-10_15h07.03.668,1_online_exp,2020.1.2,Win32,60,69,,,,,,,,,,,,,,,,,,,,,,,,,,,,,,,,,,,,,,,,,,,,,,9,0.91491,,0,30,30,30,1,parcelated_audio/22/22_31.ogg,,,,,,,,,,,,,,,,,,,,,,,,,,,,,,,,,,,,,,,,,,,,,,,,,
,,,,,,,,,,,,,,,,,,,,,,,,,,,,,,,,,,,,,,,,,,,,,,,,,,,,,,,,,,,,,,,,,,,,,,,,,,,,,,,,,,,,,,,,,,,,,,,,,,,,,,,,,,,,5d9f8573ce3daf0015e3e400,2020-06-10_15h07.03.668,1_online_exp,2020.1.2,Win32,60,69,,,,,,,,,,,,,,,,,,,,,,,,,,,,,,,,,,,,,,,,,,,,,,1,0.644055,,0,31,31,31,1,parcelated_audio/22/22_32.ogg,,,,,,,,,,,,,,,,,,,,,,,,,,,,,,,,,,,,,,,,,,,,,,,,,
,,,,,,,,,,,,,,,,,,,,,,,,,,,,,,,,,,,,,,,,,,,,,,,,,,,,,,,,,,,,,,,,,,,,,,,,,,,,,,,,,,,,,,,,,,,,,,,,,,,,,,,,,,,,5d9f8573ce3daf0015e3e400,2020-06-10_15h07.03.668,1_online_exp,2020.1.2,Win32,60,69,,,,,,,,,,,,,,,,,,,,,,,,,,,,,,,,,,,,,,,,,,,,,,1,0.678845,,0,32,32,32,1,parcelated_audio/22/22_33.ogg,,,,,,,,,,,,,,,,,,,,,,,,,,,,,,,,,,,,,,,,,,,,,,,,,
,,,,,,,,,,,,,,,,,,,,,,,,,,,,,,,,,,,,,,,,,,,,,,,,,,,,,,,,,,,,,,,,,,,,,,,,,,,,,,,,,,,,,,,,,,,,,,,,,,,,,,,,,,,,5d9f8573ce3daf0015e3e400,2020-06-10_15h07.03.668,1_online_exp,2020.1.2,Win32,60,69,,,,,,,,,,,,,,,,,,,,,,,,,,,,,,,,,,,,,,,,,,,,,,1,0.16753,,0,33,33,33,1,parcelated_audio/22/22_34.ogg,,,,,,,,,,,,,,,,,,,,,,,,,,,,,,,,,,,,,,,,,,,,,,,,,
,,,,,,,,,,,,,,,,,,,,,,,,,,,,,,,,,,,,,,,,,,,,,,,,,,,,,,,,,,,,,,,,,,,,,,,,,,,,,,,,,,,,,,,,,,,,,,,,,,,,,,,,,,,,5d9f8573ce3daf0015e3e400,2020-06-10_15h07.03.668,1_online_exp,2020.1.2,Win32,60,69,,,,,,,,,,,,,,,,,,,,,,,,,,,,,,,,,,,,,,,,,,,,,,1,0.205855,,0,34,34,34,1,parcelated_audio/22/22_35.ogg,,,,,,,,,,,,,,,,,,,,,,,,,,,,,,,,,,,,,,,,,,,,,,,,,
,,,,,,,,,,,,,,,,,,,,,,,,,,,,,,,,,,,,,,,,,,,,,,,,,,,,,,,,,,,,,,,,,,,,,,,,,,,,,,,,,,,,,,,,,,,,,,,,,,,,,,,,,,,,5d9f8573ce3daf0015e3e400,2020-06-10_15h07.03.668,1_online_exp,2020.1.2,Win32,60,69,,,,,,,,,,,,,,,,,,,,,,,,,,,,,,,,,,,,,,,,,,,,,,9,3.592965,,0,35,35,35,1,parcelated_audio/22/22_36.ogg,,,,,,,,,,,,,,,,,,,,,,,,,,,,,,,,,,,,,,,,,,,,,,,,,
,,,,,,,,,,,,,,,,,,,,,,,,,,,,,,,,,,,,,,,,,,,,,,,,,,,,,,,,,,,,,,,,,,,,,,,,,,,,,,,,,,,,,,,,,,,,,,,,,,,,,,,,,,,,5d9f8573ce3daf0015e3e400,2020-06-10_15h07.03.668,1_online_exp,2020.1.2,Win32,60,69,,,,,,,,,,,,,,,,,,,,,,,,,,,,,,,,,,,,,,,,,,,,,,1,0.189065,,0,36,36,36,1,parcelated_audio/22/22_37.ogg,,,,,,,,,,,,,,,,,,,,,,,,,,,,,,,,,,,,,,,,,,,,,,,,,
,,,,,,,,,,,,,,,,,,,,,,,,,,,,,,,,,,,,,,,,,,,,,,,,,,,,,,,,,,,,,,,,,,,,,,,,,,,,,,,,,,,,,,,,,,,,,,,,,,,,,,,,,,,,5d9f8573ce3daf0015e3e400,2020-06-10_15h07.03.668,1_online_exp,2020.1.2,Win32,60,69,,,,,,,,,,,,,,,,,,,,,,,,,,,,,,,,,,,,,,,,,,,,,,,,,,,,,,,space,5.401755,space,27.42839,accoutrements,0,0,0,0,1,accoutrements,,,,,,,,,,,,,,,,,,,,,,,,,,,,,,,,,,,,,,
,,,,,,,,,,,,,,,,,,,,,,,,,,,,,,,,,,,,,,,,,,,,,,,,,,,,,,,,,,,,,,,,,,,,,,,,,,,,,,,,,,,,,,,,,,,,,,,,,,,,,,,,,,,,5d9f8573ce3daf0015e3e400,2020-06-10_15h07.03.668,1_online_exp,2020.1.2,Win32,60,69,,,,,,,,,,,,,,,,,,,,,,,,,,,,,,,,,,,,,,,,,,,,,,,,,,,,,,,,,,,tintinnabulation,0,1,1,1,1,tintinnabulation,,,,,,,,,,,,,,,,,,,,,,,,,,,,,,,,,,,,,,
,,,,,,,,,,,,,,,,,,,,,,,,,,,,,,,,,,,,,,,,,,,,,,,,,,,,,,,,,,,,,,,,,,,,,,,,,,,,,,,,,,,,,,,,,,,,,,,,,,,,,,,,,,,,5d9f8573ce3daf0015e3e400,2020-06-10_15h07.03.668,1_online_exp,2020.1.2,Win32,60,69,,,,,,,,,,,,,,,,,,,,,,,,,,,,,,,,,,,,,,,,,,,,,,,,,,,,,,,,,,,hippocampus,0,2,2,2,1,hippocampus,,,,,,,,,,,,,,,,,,,,,,,,,,,,,,,,,,,,,,
,,,,,,,,,,,,,,,,,,,,,,,,,,,,,,,,,,,,,,,,,,,,,,,,,,,,,,,,,,,,,,,,,,,,,,,,,,,,,,,,,,,,,,,,,,,,,,,,,,,,,,,,,,,,5d9f8573ce3daf0015e3e400,2020-06-10_15h07.03.668,1_online_exp,2020.1.2,Win32,60,69,,,,,,,,,,,,,,,,,,,,,,,,,,,,,,,,,,,,,,,,,,,,,,,,,,,,,,,,,,,brigadeiro,0,3,3,3,1,brigadeiro,,,,,,,,,,,,,,,,,,,,,,,,,,,,,,,,,,,,,,
,,,,,,,,,,,,,,,,,,,,,,,,,,,,,,,,,,,,,,,,,,,,,,,,,,,,,,,,,,,,,,,,,,,,,,,,,,,,,,,,,,,,,,,,,,,,,,,,,,,,,,,,,,,,5d9f8573ce3daf0015e3e400,2020-06-10_15h07.03.668,1_online_exp,2020.1.2,Win32,60,69,,,,,,,,,,,,,,,,,,,,,,,,,,,,,,,,,,,,,,,,,,,,,,,,,,,,,,,,,,,muffeletta,0,4,4,4,1,muffuletta,,,,,,,,,,,,,,,,,,,,,,,,,,,,,,,,,,,,,,
,,,,,,,,,,,,,,,,,,,,,,,,,,,,,,,,,,,,,,,,,,,,,,,,,,,,,,,,,,,,,,,,,,,,,,,,,,,,,,,,,,,,,,,,,,,,,,,,,,,,,,,,,,,,5d9f8573ce3daf0015e3e400,2020-06-10_15h07.03.668,1_online_exp,2020.1.2,Win32,60,69,,,,,,,,,,,,,,,,,,,,,,,,"In the final part of the experiment, please answer 8 questions about the story.",,,,,,,,,,,,,,,,,,,,,,,,,,,,,,,,,,,,,,,,,,space,1.096655,0,0,0,0,1,,,,,,,,,,,,,,,,,,,,,,,,,,,,,,,
,,,,,,,,,,,,,,,,,,,,,,,,,,,,,,,,,,,,,,,,,,,,,,,,,,,,,,,,,,,,,,,,,,,,,,,,,,,,,,,,,,,,,,,,,,,,,,,,,,,,,,,,,,,,5d9f8573ce3daf0015e3e400,2020-06-10_15h07.03.668,1_online_exp,2020.1.2,Win32,60,69,,,,,,,,,,,,,,,,,,,,,,,,"We did not tell you to think of all or some of these questions during the story, but please do your best to answer them.",,,,,,,,,,,,,,,,,,,,,,,,,,,,,,,,,,,,,,,,,,space,3.761395,0,1,1,1,1,,,,,,,,,,,,,,,,,,,,,,,,,,,,,,,
,,,,,,,,,,,,,,,,,,,,,,,,,,,,,,,,,,,,,,,,,,,,,,,,,,,,,,,,,,,,,,,,,,,,,,,,,,,,,,,,,,,,,,,,,,,,,,,,,,,,,,,,,,,,5d9f8573ce3daf0015e3e400,2020-06-10_15h07.03.668,1_online_exp,2020.1.2,Win32,60,69,,,,,,,,,,,,,,,,,,,,,,,,"Answer as much as you remember, and be specific and concrete in your answers. It is best to try to be as faithful as possible to what the story actually said.
",,,,,,,,,,,,,,,,,,,,,,,,,,,,,,,,,,,,,,,,,,space,1.916115,0,2,2,2,1,,,,,,,,,,,,,,,,,,,,,,,,,,,,,,,
,,,,,,,,,,,,,,,,,,,,,,,,,,,,,,,,,,,,,,,,,,,,,,,,,,,,,,,,,,,,,,,,,,,,,,,,,,,,,,,,,,,,,,,,,,,,,,,,,,,,,,,,,,,,5d9f8573ce3daf0015e3e400,2020-06-10_15h07.03.668,1_online_exp,2020.1.2,Win32,60,69,,,,,,,,,,,,,,,,,,,,,,,,"When you have finished typing your answer, hit ‘return’ or ‘enter’ to submit your answer and move onto the next question. ",,,,,,,,,,,,,,,,,,,,,,,,,,,,,,,,,,,,,,,,,,space,1.018055,0,3,3,3,1,,,,,,,,,,,,,,,,,,,,,,,,,,,,,,,
,,,,,,,,,,,,,,,,,,,,,,,,,,,,,,,,,,,,,,,,,,,,,,,,,,,,,,,,,,,,,,,,,,,,,,,,,,,,,,,,,,,,,,,,,,,,,,,,,,,,,,,,,,,,5d9f8573ce3daf0015e3e400,2020-06-10_15h07.03.668,1_online_exp,2020.1.2,Win32,60,69,,,,,,,,,,,,,,,,,,,,,,,,Great job! There will be one more part of the experiment on a different site where you will first enter your Prolific_ID again and then answer various demographic questions and experiment questions. ,,,,,,,,,,,,,,,,,,,,,,,,,,,,,,,,,,,,,,,,,,,,,,,,,"I cant recall, I think they were in a rush",return,25.6806,A person in front of them had a lot of metal on their body. Sven also had the ring in his pocket so security stopped him.,return,37.130985,I cant recall,return,5.073175,"They sat in the front, B2 and B3",return,19.62375,I forget,return,1.40065,I dont remember,return,2.951085,In a box I think,return,7.47428,I forget,return,4.40579,space,1.52471,0,0,0,0,1
,,,,,,,,,,,,,,,,,,,,,,,,,,,,,,,,,,,,,,,,,,,,,,,,,,,,,,,,,,,,,,,,,,,,,,,,,,,,,,,,,,,,,,,,,,,,,,,,,,,,,,,,,,,,5d9f8573ce3daf0015e3e400,2020-06-10_15h07.03.668,1_online_exp,2020.1.2,Win32,60,69,,,,,,,,,,,,,,,,,,,,,,,,Do not click out of this window- you will be redirected to the second part of the experiment once the first part ends. ,,,,,,,,,,,,,,,,,,,,,,,,,,,,,,,,,,,,,,,,,,,,,,,,,,,,,,,,,,,,,,,,,,,,,,,,,space,4.52294,0,1,1,1,1
,,,,,,,,,,,,,,,,,,,,,,,,,,,,,,,,,,,,,,,,,,,,,,,,,,,,,,,,,,,,,,,,,,,,,,,,,,,,,,,,,,,,,,,,,,,,,,,,,,,,,,,,,,,,5d9f8573ce3daf0015e3e400,2020-06-10_15h07.03.668,1_online_exp,2020.1.2,Win32,60,69,,,,,,,,,,,,,,,,,,,,,,,,You must complete the next part of the experiment to receive credit for participating.,,,,,,,,,,,,,,,,,,,,,,,,,,,,,,,,,,,,,,,,,,,,,,,,,,,,,,,,,,,,,,,,,,,,,,,,,space,0.201595,0,2,2,2,1
